Folder: Automationdashboard/lectrix_internship/work/Automationdashboard/data

File: log_file.csv
id,timestamp,localtime,percentage_of_can_ids,MotorSpeed_340920578,PackCurr_6,PackVol_6,Throttle_408094978,SOC_8,DchgFetStatus_9,DchgOverTempProt_9,DchgUnderTempProt_9,PackUnderVolProt_9,PackOverVolProt_9,DchgOverCurrProt_9,CellOverVolProt_9,ChgPeakProt_9,FetFailure_9,IgnitionStatus_12,Throttle_Error_408094978,DriveError_Motor_hall_408094978,Motor_Stalling_408094978,Motor_Phase_loss_408094978,Controller_Over_Temeprature_408094978,Motor_Over_Temeprature_408094978,Overcurrent_Fault_408094978,DriveError_Controller_OverVoltag_408094978,Controller_Undervoltage_408094978,MOSFET_Protection_408094978,BatteryVoltage_340920578,BatteryCurrent_340920578,AC_Current_340920579,AC_Voltage_340920580,CellUnderVolWarn_9,Dchg_Accumulative_Ah_14,ChargerType_12,CellVol02_1,PcbTemp_12,Reverse_Pulse_408094978,LatchProtection_12,Temp6_10,Temp3_10,ForwardParking_Mode_Ack_408094978,CellOverDevProt_9,AvgCellVol_5,MinVoltId_5,DriveStatus1_Ride_418513673,LoadDetection_12,Set_Regen_418513673,number_of_records,ChgOverCurrProt_9,BuzzerStatus_12,MinCellVol_5,CellVol04_1,CellOverVolWarn_9,CellVol08_2,CellBalFeatureStatus_12,Temp2_10,CellUnderVolProt_9,Temp8_10,Hill_hold_Ack_408094978,CellVol06_2,AfeTemp_12,LatchType_12,DI1_12,Wakeup_Ack_408094978,PreChgFetStatus_9,DchgOverTempWarn_9,MCU_ID_408094979,BMS_Serial_No_MUX_11,Temp1_10,DriveStatus2_Reverse_Request_418513673,Mode_Ack_408094978,ModeR_Pulse_408094978,VCU_ID_418513673,ResSocProt_9,CellVol12_3,HwVer_13,Temp4_10,Side_Stand_Ack_408094978,DchgUnderTempWarn_9,ChgFetStatus_9,ImmoChg_12,timestamp,ChargeSOP_16,BMS_Serial_No__1_7_11,FWSubVer_13,CellVol05_2,ShortCktProt_9,DO2_12,BattLowSocWarn_9,ChgUnderTempWarn_9,BmsStatus_8,ChgOverTempProt_9,InternalFWSubVer_21,Chg_Accumulative_Ah_14,Park_Pulse_408094978,CellVol16_4,CellVol07_2,InternalFWVer_21,sequence,CellVol01_1,LedStatus_9,MaxTempId_7,CellVol15_4,CellVol09_3,DschgPeakProt_9,Motor_Temperature_408094979,_3v3Vol_15,ChargerDetection_12,Actual_SoC_18,SOCAh_8,Usable_Capacity_Ah_18,BMS_Serial_No_Bytes_8_14_11,Mode_Request_418513673,PackOverVolWarn_9,Temp7_10,ChgOverTempWarn_9,SOH_8,Temp5_10,MaxCellVol_5,Direction_Ack_408094978,DC_Current_Limit_418513673,Ride_Ack_408094978,MaxVoltId_5,BMS_Serial_No__15_11,_12vVol_15,MCU_Fault_Code_408094979,CycleCount_7,MCU_Temperature_408094979,TempSenseFault_9,Hill_Hold_418513673,MinTemp_7,CellVol13_4,DchgSOP_16,Drive_418513673,CellVol14_4,FetTemp_8,WakeUp_Request_418513673,PackUnderVolWarn_9,CellVol10_3,ConfigVer_21,FetTempProt_9,number_of_can_ids,ChgAuth_9,Brake_Pulse_408094978,CellVol03_1,ForwardPark_Request_418513673,CanCommDetection_12,DriveStatus_Regenerative_Braking_408094978,MinTempId_7,ResStatus_9,ModeL_Pulse_408094978,CellVolMinMaxDev_7,ImmoDchg_12,CellChemType_12,ChgUnderTempProt_9,CellVol11_3,MaxTemp_7,RefVol_15,_5vVol_15,DO1_12,SideStand_Pulse_408094978,FwVer_13,DI2_12,ActiveCellBalStatus_9
3,1711002019540,21/03/2024 11:50:19.540,95.8333,3475,-54.426,50.246,12,26,1,0,0,0,0,0,0,0,0,1,0,0,0,0,0,0,0,0,0,0,5.0,51.1,58.3,3.2,0,3870769,2,3.143,59,0,0,40,40,0,0,3.14,8,1,0,20,28,0,0,3.127,3.141,0,3.127,1,42,0,41,0,3.144,60,0,0,1,0,0,256,,39,0,2,0,0,0,3.139,5718322,40,0,0,1,0,1711002019540,20000,,12337,3.144,0,0,0,0,4,0,12853,4215.196,0,3.131,3.144,3354936,48236,3.14,0,5,3.143,3.146,0,0,3.291,0,2693.43,10.666,37.2,,2,0,38,0,89,43,3.146,0,105,1,9,,12.458,0,130,40,0,0,38,3.145,66617,2880,3.14,61,1,0,3.137,4272433,0,23,1,0,3.142,0,1,0,7,0,0,0.019,0,2,0,3.14,43,5.108,5.084,0,0,4469048,0,0
3,1711002003860,21/03/2024 11:50:03.860,91.6667,3480,-64.035,50.243,14,27,1,0,0,0,0,0,0,0,0,1,0,0,0,0,0,0,0,0,0,0,5.0,64.0,59.1,3.4,0,3870509,2,3.143,59,0,0,40,40,0,0,3.14,8,,0,,27,0,0,3.122,3.14,0,3.122,1,42,0,41,0,3.143,60,0,0,1,0,0,256,,39,,2,0,,0,3.138,5718322,40,0,0,1,0,1711002003860,20000,,12337,3.144,0,0,0,0,4,0,12853,4215.196,0,3.13,3.143,3354936,42818,3.14,0,5,3.144,3.147,0,0,3.272,0,2759.09,10.926,37.2,,,0,38,0,89,43,3.147,0,,1,9,,12.39,0,130,40,0,,38,3.147,67640,,3.14,59,,0,3.138,4272433,0,22,1,0,3.144,,1,0,7,0,0,0.025,0,2,0,3.14,43,5.088,5.056,0,0,4469048,0,0
3,1711001988235,21/03/2024 11:49:48.235,91.6667,3548,-66.354,50.368,10,28,1,0,0,0,0,0,0,0,0,1,0,0,0,0,0,0,0,0,0,0,5.0,64.0,44.2,3.6,0,3870308,2,3.151,59,0,0,40,40,0,0,3.148,8,,0,,27,0,0,3.133,3.148,0,3.133,1,42,0,41,0,3.15,60,0,0,1,0,0,256,,39,,2,0,,0,3.147,5718322,40,0,0,1,0,1711001988235,20000,,12337,3.151,0,0,0,0,4,0,12853,4215.196,0,3.138,3.152,3354936,37374,3.148,0,2,3.15,3.155,0,0,3.275,0,2809.84,11.127,37.2,,,0,38,0,89,42,3.155,0,,1,9,,12.403,0,130,40,0,,38,3.154,69861,,3.148,59,,0,3.143,4272433,0,22,1,0,3.152,,1,0,7,0,0,0.022,0,2,0,3.148,42,5.09,5.061,0,0,4469048,0,0
3,1711001972520,21/03/2024 11:49:32.520,91.6667,3431,7.509,51.564,0,28,1,0,0,0,0,0,0,0,0,1,0,0,0,0,0,0,0,0,0,0,5.3,6546.0,25.0,3.5,0,3870168,2,3.224,59,0,0,40,40,0,0,3.222,16,,0,,27,0,0,3.212,3.225,0,3.223,1,42,0,41,0,3.225,60,0,0,1,0,0,256,,39,,2,0,,0,3.223,5718322,40,0,0,1,0,1711001972520,20000,,12337,3.222,0,0,0,0,4,0,12853,4215.196,0,3.212,3.225,3354936,31928,3.222,0,2,3.222,3.224,0,0,3.299,0,2845.2,11.267,37.2,,,0,38,0,89,42,3.226,0,,1,13,,12.403,0,130,40,0,,38,3.226,70370,,3.223,59,,0,3.224,4272433,0,22,1,0,3.222,,1,0,7,0,0,0.014,0,2,0,3.222,42,5.108,5.089,0,0,4469048,0,0
3,1711001956900,21/03/2024 11:49:16.900,91.6667,3379,-34.607,51.043,9,28,1,0,0,0,0,0,0,0,0,1,0,0,0,0,0,0,0,0,0,0,5.1,32.6,32.1,3.7,0,3870008,2,3.193,59,0,0,40,40,0,0,3.19,16,,0,,27,0,0,3.178,3.191,0,3.183,1,42,0,41,0,3.192,60,0,0,1,0,0,256,,39,,2,0,,0,3.189,5718322,40,0,0,1,0,1711001956900,20000,,12337,3.193,0,0,0,0,4,0,12853,4215.196,0,3.178,3.193,3354936,26514,3.191,0,2,3.191,3.194,0,0,3.271,0,2885.6,11.427,37.2,,,0,38,0,89,42,3.194,0,,1,9,,12.39,0,130,40,0,,38,3.194,70952,,3.19,58,,0,3.189,4272433,0,22,1,0,3.192,,1,0,7,0,0,0.016,0,2,0,3.19,42,5.088,5.058,0,0,4469048,0,0
3,1711001941402,21/03/2024 11:49:01.402,91.6667,3518,0.301,51.577,4,29,1,0,0,0,0,0,0,0,0,1,0,0,0,0,0,0,0,0,0,0,5.3,6551.9,28.5,3.4,0,3869905,2,3.225,59,0,0,40,40,0,0,3.223,16,,0,,22,0,0,3.213,3.225,0,3.222,1,42,0,41,0,3.225,60,0,0,1,0,0,256,,39,,2,0,,0,3.224,5718322,40,0,0,1,0,1711001941402,20000,,12337,3.224,0,0,0,0,4,0,12853,4215.196,0,3.213,3.225,3354936,21133,3.223,0,2,3.224,3.225,0,0,3.285,0,2911.61,11.53,37.2,,,0,38,0,89,42,3.226,0,,1,13,,12.441,0,130,40,0,,38,3.226,71327,,3.224,58,,0,3.225,4272433,0,22,1,0,3.223,,1,0,7,0,0,0.013,0,2,0,3.224,42,5.1,5.075,0,0,4469048,0,0
3,1711001925705,21/03/2024 11:48:45.705,95.8333,3449,-34.156,50.975,8,29,1,0,0,0,0,0,0,0,0,1,0,0,0,0,0,0,0,0,0,0,5.1,31.9,35.5,3.4,0,3869821,2,3.188,59,0,0,40,40,0,0,3.185,16,1,0,20,23,0,0,3.174,3.187,0,3.177,1,42,0,41,0,3.187,60,0,0,1,0,0,256,,39,0,2,0,0,0,3.185,5718322,40,0,0,1,0,1711001925705,20000,,12337,3.188,0,0,0,0,4,0,12853,4215.196,0,3.174,3.19,3354936,15685,3.187,0,2,3.187,3.189,0,0,3.288,0,2932.82,11.614,37.2,,2,0,38,0,89,42,3.191,0,105,1,13,,12.394,0,130,40,0,0,38,3.191,71632,2880,3.186,58,1,0,3.185,4272433,0,23,1,0,3.188,0,1,0,7,0,0,0.017,0,2,0,3.186,42,5.098,5.056,0,0,4469048,0,0
3,1711001910040,21/03/2024 11:48:30.040,20.8333,3662,,,6,,,,,,,,,,,,0,0,0,0,0,0,0,0,0,0,5.2,25.0,35.2,3.5,,,,,,0,,,,0,,,,,,,5,,,,,,,,,,,0,,,,,1,,,256,,,,2,0,,,,,,0,,,,1711001910040,,,,,,,,,,,,,0,,,,10241,,,,,,,0,,,,,,,,,,,,,,0,,1,,,,0,,40,,,,,,,,,,,,,,5,,0,,,,0,,,0,,,,,,,,,,0,,,
3,1711001894340,21/03/2024 11:48:14.340,91.6667,3497,-21.023,51.252,7,29,1,0,0,0,0,0,0,0,0,1,0,0,0,0,0,0,0,0,0,0,5.2,21.6,23.8,3.8,0,3869604,2,3.205,59,0,0,40,40,0,0,3.203,16,,0,,27,0,0,3.195,3.204,0,3.197,1,42,0,41,0,3.206,60,0,0,1,0,0,256,,39,,2,0,,0,3.202,5718322,40,0,0,1,0,1711001894340,20000,,12337,3.205,0,0,0,0,4,0,12853,4215.196,0,3.195,3.205,3354936,4792,3.204,0,2,3.203,3.205,0,0,3.286,0,2987.62,11.831,37.2,,,0,38,0,89,42,3.207,0,,1,13,,12.445,0,130,40,0,,38,3.207,72421,,3.203,59,,0,3.203,4272433,0,22,1,0,3.205,,1,0,7,0,0,0.012,0,2,0,3.203,42,5.103,5.079,0,0,4469048,0,0
3,1711001878801,21/03/2024 11:47:58.801,91.6667,3440,-12.911,51.177,5,30,1,0,0,0,0,0,0,0,0,1,0,0,0,0,0,0,0,0,0,0,5.2,11.4,30.5,3.3,0,3869526,2,3.2,59,0,0,40,40,0,0,3.198,16,,0,,27,0,0,3.189,3.2,0,3.194,1,42,0,41,0,3.202,60,0,0,1,0,0,256,,39,,2,0,,0,3.198,5718322,39,0,0,1,0,1711001878801,20000,,12337,3.199,0,0,0,0,4,0,12853,4215.196,0,3.189,3.201,3354936,64947,3.198,0,2,3.199,3.201,0,0,3.296,0,3007.32,11.909,37.2,,,0,38,0,89,42,3.202,0,,1,6,,12.39,0,130,40,0,,38,3.202,72600,,3.198,59,,0,3.199,4272433,0,22,1,0,3.199,,1,0,7,0,0,0.013,0,2,0,3.198,42,5.103,5.056,0,0,4469048,0,0
3,1711001862848,21/03/2024 11:47:42.848,20.8333,3399,,,11,,,,,,,,,,,,0,0,0,0,0,0,0,0,0,0,5.1,43.2,36.2,3.6,,,,,,0,,,,0,,,,,,,5,,,,,,,,,,,0,,,,,1,,,256,,,,2,0,,,,,,0,,,,1711001862848,,,,,,,,,,,,,0,,,,59400,,,,,,,0,,,,,,,,,,,,,,0,,1,,,,0,,40,,,,,,,,,,,,,,5,,0,,,,0,,,0,,,,,,,,,,0,,,
3,1711001847120,21/03/2024 11:47:27.120,25.0,3508,,,10,,,,,,,,,,,,0,0,0,0,0,0,0,0,0,0,5.0,62.2,47.1,3.5,,,,,,0,,,,0,,,,1,,20,6,,,,,,,,,,,0,,,,,1,,,256,,,0,2,0,0,,,,,0,,,,1711001847120,,,,,,,,,,,,,0,,,,53947,,,,,,,0,,,,,,,2,,,,,,,0,105,1,,,,0,,40,,0,,,,2880,,,1,,,,,6,,0,,0,,0,,,0,,,,,,,,,,0,,,
3,1711001831260,21/03/2024 11:47:11.260,91.6667,3459,-30.099,51.096,8,31,1,0,0,0,0,0,0,0,0,1,0,0,0,0,0,0,0,0,0,0,5.1,29.0,31.8,3.5,0,3868989,2,3.194,59,0,0,40,40,0,0,3.193,16,,0,,27,0,0,3.184,3.194,0,3.186,1,41,0,40,0,3.196,60,0,0,1,0,0,256,,38,,2,0,,0,3.193,5718322,39,0,0,1,0,1711001831260,20000,,12337,3.195,0,0,0,0,4,0,12853,4215.196,0,3.184,3.195,3354936,48514,3.193,0,5,3.195,3.198,0,0,3.28,0,3142.92,12.446,37.2,,,0,38,0,89,42,3.198,0,,1,9,,12.386,0,130,40,0,,38,3.198,72600,,3.194,59,,0,3.193,4272433,0,22,1,0,3.194,,1,0,1,0,0,0.014,0,2,0,3.194,42,5.09,5.054,0,0,4469048,0,0
3,1711001815400,21/03/2024 11:46:55.400,91.6667,3741,-32.057,51.03,8,31,1,0,0,0,0,0,0,0,0,1,0,0,0,0,0,0,0,0,0,0,5.1,29.6,48.0,3.3,0,3868846,2,3.191,59,0,0,40,39,0,0,3.189,16,,0,,22,0,0,3.179,3.191,0,3.181,1,41,0,40,0,3.191,60,0,0,1,0,0,256,,38,,2,0,,0,3.189,5718322,39,0,0,1,0,1711001815400,20000,,12337,3.191,0,0,0,0,4,0,12853,4215.196,0,3.179,3.191,3354936,43001,3.189,0,5,3.19,3.194,0,0,3.272,0,3179.04,12.589,37.2,,,0,38,0,89,42,3.194,0,,1,9,,12.39,0,130,40,0,,38,3.194,72600,,3.191,59,,0,3.188,4272433,0,22,1,0,3.191,,1,0,1,0,0,0.015,0,2,0,3.189,42,5.085,5.056,0,0,4469048,0,0
3,1711001799780,21/03/2024 11:46:39.780,91.6667,3640,-14.186,51.416,13,32,1,0,0,0,0,0,0,0,0,1,0,0,0,0,0,0,0,0,0,0,5.2,14.1,63.9,3.3,0,3868679,2,3.216,59,0,0,40,39,0,0,3.213,16,,0,,27,0,0,3.202,3.216,0,3.21,1,41,0,40,0,3.216,60,0,0,1,0,0,256,,38,,2,0,,0,3.212,5718322,39,0,0,1,0,1711001799780,20000,,12337,3.215,0,0,0,0,4,0,12853,4215.196,0,3.202,3.215,3354936,37587,3.215,0,5,3.213,3.217,0,0,3.271,0,3221.21,12.756,37.2,,,0,38,0,89,42,3.217,0,,1,9,,12.39,0,129,40,0,,38,3.216,72600,,3.212,59,,0,3.213,4272433,0,22,1,0,3.215,,1,0,1,0,0,0.015,0,2,0,3.213,42,5.088,5.056,0,0,4469048,0,0
3,1711001784000,21/03/2024 11:46:24.000,91.6667,3014,-33.935,51.291,12,32,1,0,0,0,0,0,0,0,0,1,0,0,0,0,0,0,0,0,0,0,5.2,32.8,30.9,3.5,0,3868489,2,3.207,59,0,0,40,39,0,0,3.205,16,,0,,27,0,0,3.195,3.206,0,3.198,1,41,0,40,0,3.207,60,0,0,1,0,0,256,,38,,2,0,,0,3.205,5718322,39,0,0,1,0,1711001784000,20000,,12337,3.207,0,0,0,0,4,0,12853,4215.196,0,3.195,3.208,3354936,32109,3.206,0,5,3.207,3.209,0,0,3.291,0,3269.19,12.946,37.2,,,0,38,0,89,42,3.211,0,,1,13,,12.386,0,129,40,0,,38,3.211,72600,,3.207,58,,0,3.205,4272433,0,22,1,0,3.207,,1,0,1,0,0,0.016,0,2,0,3.206,42,5.095,5.054,0,0,4469048,0,0
3,1711001768280,21/03/2024 11:46:08.280,91.6667,1949,-15.16,51.686,8,32,1,0,0,0,0,0,0,0,0,1,0,0,0,0,0,0,0,0,0,0,5.3,14.1,19.8,2.3,0,3868393,2,3.231,59,0,0,40,39,0,0,3.23,16,,0,,24,0,0,3.219,3.231,0,3.226,1,41,0,40,0,3.231,60,0,0,1,0,0,256,,38,,2,0,,0,3.23,5718322,39,0,0,1,0,1711001768280,20000,,12337,3.231,0,0,0,0,4,0,12853,4215.196,0,3.219,3.233,3354936,26663,3.231,0,5,3.231,3.234,0,0,3.298,0,3293.43,13.042,37.2,,,0,38,0,89,42,3.235,0,,1,13,,12.424,0,129,40,0,,38,3.235,72600,,3.23,58,,0,3.231,4272433,0,22,1,0,3.231,,1,0,1,0,0,0.016,0,2,0,3.231,42,5.108,5.093,0,0,4469048,0,0
3,1711001752500,21/03/2024 11:45:52.500,91.6667,1814,-8.182,51.78,4,33,1,0,0,0,0,0,0,0,0,1,0,0,0,0,0,0,0,0,0,0,5.3,7.7,11.1,2.2,0,3868351,2,3.237,59,0,0,40,39,0,0,3.236,16,,0,,27,0,0,3.226,3.237,0,3.233,1,41,0,40,0,3.238,60,0,0,1,0,0,256,,38,,2,0,,0,3.236,5718322,39,0,0,1,0,1711001752500,20000,,12337,3.237,0,0,0,0,4,0,12853,4215.196,0,3.226,3.238,3354936,21180,3.236,0,5,3.237,3.239,0,0,3.298,0,3304.04,13.084,37.2,,,0,38,0,89,42,3.24,0,,1,13,,12.39,0,129,40,0,,38,3.24,72600,,3.236,58,,0,3.237,4272433,0,22,1,0,3.236,,1,0,1,0,0,0.014,0,2,0,3.237,42,5.1,5.054,0,0,4469048,0,0
3,1711001736880,21/03/2024 11:45:36.880,91.6667,1455,-10.582,51.716,7,33,1,0,0,0,0,0,0,0,0,1,0,0,0,0,0,0,0,0,0,0,5.3,9.9,16.0,1.8,0,3868310,2,3.233,59,0,0,40,39,0,0,3.232,16,,0,,27,0,0,3.222,3.234,0,3.229,1,41,0,40,0,3.234,60,0,0,1,0,0,256,,38,,2,0,,0,3.232,5718322,39,0,0,1,0,1711001736880,20000,,12337,3.233,0,0,0,0,4,0,12853,4215.196,0,3.222,3.234,3354936,15766,3.232,0,5,3.233,3.234,0,0,3.298,0,3314.39,13.125,37.2,,,0,38,0,89,42,3.236,0,,1,13,,12.454,0,129,40,0,,38,3.236,72600,,3.233,58,,0,3.233,4272433,0,22,1,0,3.232,,1,0,1,0,0,0.014,0,2,0,3.232,42,5.111,5.096,0,0,4469048,0,0
3,1711001723660,21/03/2024 11:45:23.660,95.8333,1474,-5.331,51.727,2,33,1,0,0,0,0,0,0,0,0,1,0,0,0,0,0,0,0,0,0,0,5.3,4.4,6.6,1.8,0,3868284,2,3.234,59,0,0,40,39,0,0,3.232,16,1,0,20,28,0,0,3.223,3.234,0,3.23,1,41,0,40,0,3.234,60,0,0,1,0,0,256,,38,0,2,0,0,0,3.233,5718322,39,0,0,1,0,1711001723660,20000,,12337,3.233,0,0,0,0,4,0,12853,4215.196,0,3.223,3.234,3354936,11191,3.232,0,5,3.234,3.235,0,0,3.273,0,3320.95,13.151,37.2,,2,0,38,0,89,42,3.237,0,105,1,13,,12.394,0,129,40,0,0,38,3.237,72600,2880,3.234,59,1,0,3.234,4272433,0,23,1,0,3.233,0,1,0,1,0,0,0.014,0,2,0,3.233,42,5.093,5.061,0,0,4469048,0,0