Folder: Automationdashboard

File: log.csv
id,timestamp,localtime,percentage_of_can_ids,MotorSpeed_340920578,PackCurr_6,PackVol_6,Throttle_408094978,SOC_8,DchgFetStatus_9,DchgOverTempProt_9,DchgUnderTempProt_9,PackUnderVolProt_9,PackOverVolProt_9,DchgOverCurrProt_9,CellOverVolProt_9,ChgPeakProt_9,FetFailure_9,IgnitionStatus_12,Throttle_Error_408094978,DriveError_Motor_hall_408094978,Motor_Stalling_408094978,Motor_Phase_loss_408094978,Controller_Over_Temeprature_408094978,Motor_Over_Temeprature_408094978,Overcurrent_Fault_408094978,DriveError_Controller_OverVoltag_408094978,Controller_Undervoltage_408094978,MOSFET_Protection_408094978,BatteryVoltage_340920578,BatteryCurrent_340920578,AC_Current_340920579,AC_Voltage_340920580,CellUnderVolWarn_9,Dchg_Accumulative_Ah_14,ChargerType_12,CellVol02_1,PcbTemp_12,Reverse_Pulse_408094978,LatchProtection_12,Temp6_10,Temp3_10,ForwardParking_Mode_Ack_408094978,CellOverDevProt_9,AvgCellVol_5,MinVoltId_5,DriveStatus1_Ride_418513673,LoadDetection_12,Set_Regen_418513673,number_of_records,ChgOverCurrProt_9,BuzzerStatus_12,MinCellVol_5,CellVol04_1,CellOverVolWarn_9,CellVol08_2,CellBalFeatureStatus_12,Temp2_10,CellUnderVolProt_9,Temp8_10,Hill_hold_Ack_408094978,CellVol06_2,AfeTemp_12,LatchType_12,DI1_12,Wakeup_Ack_408094978,PreChgFetStatus_9,DchgOverTempWarn_9,MCU_ID_408094979,BMS_Serial_No_MUX_11,Temp1_10,DriveStatus2_Reverse_Request_418513673,Mode_Ack_408094978,ModeR_Pulse_408094978,VCU_ID_418513673,ResSocProt_9,CellVol12_3,HwVer_13,Temp4_10,Side_Stand_Ack_408094978,DchgUnderTempWarn_9,ChgFetStatus_9,ImmoChg_12,timestamp,ChargeSOP_16,BMS_Serial_No__1_7_11,FWSubVer_13,CellVol05_2,ShortCktProt_9,DO2_12,BattLowSocWarn_9,ChgUnderTempWarn_9,BmsStatus_8,ChgOverTempProt_9,InternalFWSubVer_21,Chg_Accumulative_Ah_14,Park_Pulse_408094978,CellVol16_4,CellVol07_2,InternalFWVer_21,sequence,CellVol01_1,LedStatus_9,MaxTempId_7,CellVol15_4,CellVol09_3,DschgPeakProt_9,Motor_Temperature_408094979,_3v3Vol_15,ChargerDetection_12,Actual_SoC_18,SOCAh_8,Usable_Capacity_Ah_18,BMS_Serial_No_Bytes_8_14_11,Mode_Request_418513673,PackOverVolWarn_9,Temp7_10,ChgOverTempWarn_9,SOH_8,Temp5_10,MaxCellVol_5,Direction_Ack_408094978,DC_Current_Limit_418513673,Ride_Ack_408094978,MaxVoltId_5,BMS_Serial_No__15_11,_12vVol_15,MCU_Fault_Code_408094979,CycleCount_7,MCU_Temperature_408094979,TempSenseFault_9,Hill_Hold_418513673,MinTemp_7,CellVol13_4,DchgSOP_16,Drive_418513673,CellVol14_4,FetTemp_8,WakeUp_Request_418513673,PackUnderVolWarn_9,CellVol10_3,ConfigVer_21,FetTempProt_9,number_of_can_ids,ChgAuth_9,Brake_Pulse_408094978,CellVol03_1,ForwardPark_Request_418513673,CanCommDetection_12,DriveStatus_Regenerative_Braking_408094978,MinTempId_7,ResStatus_9,ModeL_Pulse_408094978,CellVolMinMaxDev_7,ImmoDchg_12,CellChemType_12,ChgUnderTempProt_9,CellVol11_3,MaxTemp_7,RefVol_15,_5vVol_15,DO1_12,SideStand_Pulse_408094978,FwVer_13,DI2_12,ActiveCellBalStatus_9
4,1710382176986,14/03/2024 07:39:36.986,25.0,,-34.754,50.627,,,,,,,,,,,,,,,,,,,,,,,,,,,,,,3.17,,,,,,,,3.164,8,,,,6,,,3.148,3.166,,3.148,,,,,,3.168,,,,,,,,,,,,,,,3.167,,,,,,,1710382176986,,,,3.172,,,,,,,,,,3.156,3.16,,38335,3.162,,,3.168,3.168,,,,,,,,,,,,,,,3.172,,,,5,,,,,,,,,3.161,,,3.169,,,,3.169,,,6,,,3.163,,,,,,,,,,,3.16,,,,,,,,
4,1710382149046,14/03/2024 07:39:09.046,91.6667,2462,-59.105,50.295,27,36,1,0,0,0,0,0,0,0,0,1,0,0,0,0,0,0,0,0,0,0,4.9,63.6,77.2,2.2,1,1457518,2,3.147,55,0,0,38,38,0,0,3.143,8,,0,,27,0,0,3.118,3.146,0,3.118,0,37,0,38,0,3.149,58,0,0,1,0,0,256,,36,,3,0,,0,3.145,5718322,37,0,0,1,0,1710382149046,20000,,12337,3.153,0,0,0,0,4,0,12854,1489.322,0,3.131,3.14,3354936,28679,3.134,0,3,3.15,3.15,0,96,3.292,0,3628.03,14.367,37.2,,,0,38,0,99,37,3.155,0,,1,14,,12.182,0,48,53,0,,36,3.145,75000,,3.155,61,,1,3.149,4272433,0,22,1,0,3.145,,1,0,1,0,0,0.037,0,2,0,3.138,38,5.06,5.065,0,0,4469048,0,0
4,1710382121146,14/03/2024 07:38:41.146,91.6667,4268,-114.841,48.559,53,37,1,0,0,0,0,0,0,0,0,1,0,0,0,0,0,0,0,0,0,0,4.6,115.1,101.2,3.2,1,1457108,2,3.045,55,0,0,38,37,0,0,3.034,8,,0,,27,0,0,2.989,3.041,0,2.989,0,37,0,37,0,3.044,57,0,0,1,0,0,256,,36,,3,0,,0,3.04,5718322,37,0,0,1,0,1710382121146,20000,,12337,3.052,0,0,0,0,4,0,12854,1489.284,0,3.014,3.029,3354936,18997,3.021,0,6,3.051,3.048,0,95,3.27,0,3721.96,14.739,37.2,,,0,38,0,99,36,3.052,0,,1,5,,12.182,0,48,53,0,,36,3.036,75000,,3.05,62,,1,3.043,4272433,0,22,1,0,3.035,,1,0,1,0,0,0.063,0,2,0,3.021,38,5.053,5.028,0,0,4469048,0,0
4,1710382093200,14/03/2024 07:38:13.200,95.8333,3848,19.906,51.737,0,38,1,0,0,0,0,0,0,0,0,1,0,0,0,0,0,0,0,0,0,0,5.2,6536.5,31.2,3.0,1,1456567,2,3.237,54,0,0,38,37,0,0,3.233,9,1,0,20,28,0,0,3.228,3.232,0,3.234,0,37,0,37,0,3.234,56,0,0,1,0,0,256,,36,0,3,0,0,0,3.234,5718322,37,0,0,1,0,1710382093200,20000,,12337,3.235,0,0,0,0,4,0,12854,1489.255,0,3.235,3.23,3354936,9285,3.238,0,6,3.234,3.228,0,91,3.295,0,3851.26,15.251,37.2,,3,0,38,0,99,36,3.238,0,115,1,1,,12.275,0,48,52,0,0,36,3.233,75000,4500,3.236,60,1,1,3.234,4272433,0,23,1,0,3.232,0,1,0,1,0,0,0.01,0,2,0,3.231,38,5.085,5.07,0,0,4469048,0,0
4,1710382065366,14/03/2024 07:37:45.366,91.6667,4399,-51.22,50.41,34,39,1,0,0,0,0,0,0,0,0,1,0,0,0,0,0,0,0,0,0,0,4.9,44.5,41.7,3.4,1,1456170,2,3.16,54,0,0,38,37,0,0,3.15,8,,0,,27,0,0,3.125,3.15,0,3.125,0,37,0,37,0,3.156,56,0,0,1,0,0,256,,35,,3,0,,0,3.148,5718322,37,0,0,1,0,1710382065366,20000,,12337,3.158,0,0,0,0,4,0,12854,1489.221,0,3.146,3.146,3354936,65173,3.147,0,6,3.16,3.154,0,91,3.271,0,3942.92,15.614,37.2,,,0,37,0,99,36,3.163,0,,1,14,,12.182,0,48,52,0,,35,3.153,75000,,3.163,59,,1,3.153,4272433,0,22,1,0,3.148,,1,0,1,0,0,0.038,0,2,0,3.143,38,5.053,5.028,0,0,4469048,0,0
4,1710382031986,14/03/2024 07:37:11.986,91.6667,4409,-99.686,49.039,24,41,1,0,0,0,0,0,0,0,0,1,0,0,0,0,0,0,0,0,0,0,4.7,98.7,92.4,3.2,1,1455519,2,3.083,53,0,0,37,37,0,0,3.064,8,,0,,22,0,0,3.026,3.069,0,3.026,0,36,0,37,0,3.073,55,0,0,1,0,0,256,,35,,3,0,,0,3.067,5718322,36,0,0,1,0,1710382031986,20000,,12337,3.078,0,0,0,0,4,0,12854,1489.218,0,3.043,3.06,3354936,53630,3.057,0,3,3.077,3.079,0,89,3.294,0,4106.56,16.262,37.2,,,0,37,0,99,36,3.083,0,,1,2,,12.254,0,48,51,0,,35,3.064,75000,,3.077,60,,1,3.069,4272433,0,22,1,0,3.064,,1,0,1,0,0,0.057,0,2,0,3.053,37,5.083,5.068,0,0,4469048,0,0
4,1710382003986,14/03/2024 07:36:43.986,91.6667,3692,-52.756,50.259,16,42,1,0,0,0,0,0,0,0,0,1,0,0,0,0,0,0,0,0,0,0,4.8,57.2,59.0,3.2,0,1454798,2,3.15,52,0,0,37,36,0,0,3.141,8,,0,,27,0,0,3.118,3.14,0,3.118,0,36,0,36,0,3.146,54,0,0,1,0,0,256,,35,,3,0,,0,3.143,5718322,36,0,0,1,0,1710382003986,20000,,12337,3.15,0,0,0,0,4,0,12854,1489.218,0,3.131,3.136,3354936,43913,3.137,0,6,3.149,3.145,0,87,3.293,0,4288.63,16.983,37.2,,,0,37,0,99,35,3.15,0,,1,2,,12.178,0,48,50,0,,35,3.141,75000,,3.15,57,,1,3.146,4272433,0,22,1,0,3.142,,1,0,1,0,0,0.032,0,2,0,3.135,37,5.06,5.065,0,0,4469048,0,0
4,1710381971185,14/03/2024 07:36:11.185,91.6667,3600,-106.731,49.225,55,44,1,0,0,0,0,0,0,0,0,1,0,0,0,0,0,0,0,0,0,0,4.7,115.1,96.5,3.3,0,1454140,2,3.087,51,0,0,37,36,0,0,3.076,8,,0,,27,0,0,3.037,3.079,0,3.037,0,36,0,36,0,3.089,53,0,0,1,0,0,256,,35,,3,0,,0,3.08,5718322,36,0,0,1,0,1710381971185,20000,,12337,3.091,0,0,0,0,4,0,12854,1489.211,0,3.055,3.074,3354936,32535,3.065,0,6,3.085,3.095,0,86,3.292,0,4453.03,17.634,37.2,,,0,37,0,99,35,3.095,0,,1,9,,12.178,0,48,50,0,,35,3.075,75000,,3.091,56,,1,3.082,4272433,0,22,1,0,3.074,,1,0,1,0,0,0.058,0,2,0,3.066,37,5.06,5.068,0,0,4469048,0,0
4,1710381942606,14/03/2024 07:35:42.606,95.8333,3059,21.585,52.235,0,45,1,0,0,0,0,0,0,0,0,1,0,0,0,0,0,0,0,0,0,0,5.2,6533.3,22.4,2.5,0,1453615,2,3.265,51,0,0,37,36,0,0,3.264,9,1,0,20,28,0,0,3.259,3.264,0,3.267,0,36,0,36,0,3.265,53,0,0,1,0,0,256,,35,0,3,0,0,0,3.264,5718322,36,0,0,1,0,1710381942606,20000,,12337,3.267,0,0,0,0,4,0,12854,1489.181,0,3.266,3.26,3354936,22610,3.269,6,6,3.265,3.259,0,84,3.271,0,4578.03,18.129,37.2,,3,0,36,0,99,35,3.269,0,115,1,1,,12.182,0,48,50,0,0,35,3.263,75000,4500,3.265,53,1,0,3.266,4272433,0,23,1,0,3.266,0,1,0,1,0,0,0.01,0,2,0,3.264,37,5.053,5.028,0,0,4469048,0,0
4,1710381913986,14/03/2024 07:35:13.986,91.6667,3121,-25.108,51.674,11,46,1,0,0,0,0,0,0,0,0,1,0,0,0,0,0,0,0,0,0,0,5.1,16.7,23.8,2.7,0,1453156,2,3.237,50,0,0,37,36,0,0,3.229,8,,0,,27,0,0,3.218,3.233,0,3.218,0,36,0,36,0,3.232,52,0,0,1,0,0,256,,35,,3,0,,0,3.225,5718322,36,0,0,1,0,1710381913986,20000,,12337,3.235,0,0,0,0,4,0,12854,1489.162,0,3.236,3.227,3354936,12685,3.237,6,6,3.226,3.229,0,82,3.283,0,4689.14,18.569,37.2,,,0,36,0,99,35,3.237,0,,1,1,,12.233,0,48,50,0,,35,3.224,75000,,3.228,50,,0,3.23,4272433,0,22,1,0,3.234,,1,0,1,0,0,0.019,0,2,0,3.223,37,5.068,5.049,0,0,4469048,0,0
4,1710381883646,14/03/2024 07:34:43.646,95.8333,1165,11.632,52.541,0,47,1,0,0,0,0,0,0,0,0,1,0,0,0,0,0,0,0,0,0,0,5.2,6542.0,42.2,0.9,0,1452907,2,3.284,50,0,0,37,36,0,0,3.283,9,1,0,20,28,0,0,3.281,3.282,0,3.285,0,36,0,36,0,3.283,52,0,0,1,0,0,256,,35,0,3,0,0,0,3.284,5718322,36,0,0,1,0,1710381883646,20000,,12337,3.284,0,0,0,0,9,0,12854,1489.158,0,3.283,3.282,3354936,2143,3.287,0,6,3.284,3.281,0,82,3.295,0,4751.01,18.814,37.2,,3,0,36,0,99,35,3.287,0,115,1,1,,12.178,0,48,50,0,0,35,3.284,75000,4500,3.285,50,1,0,3.285,4272433,0,23,1,0,3.284,0,1,0,1,0,0,0.006,0,2,0,3.284,37,5.07,5.07,0,0,4469048,0,0
4,1710381829466,14/03/2024 07:33:49.466,95.8333,2437,-39.587,51.348,19,48,1,0,0,0,0,0,0,0,0,1,0,0,0,0,0,0,0,0,0,0,5.0,38.7,51.4,2.1,0,1452550,2,3.214,51,0,0,36,36,0,0,3.209,8,1,0,20,28,0,0,3.193,3.21,0,3.193,0,36,0,36,0,3.213,53,0,0,1,0,0,256,,35,0,3,0,0,0,3.211,5718322,36,0,0,1,0,1710381829466,20000,,12337,3.215,0,0,0,0,4,0,12854,1489.111,0,3.2,3.207,3354936,48901,3.206,6,2,3.215,3.214,0,83,3.268,0,4829.29,19.124,37.2,,3,0,36,0,99,35,3.216,0,115,1,14,,12.178,0,48,50,0,0,35,3.209,75000,4500,3.216,50,1,0,3.211,4272433,0,23,1,0,3.209,0,1,0,1,0,0,0.023,0,2,0,3.205,36,5.048,5.03,0,0,4469048,0,0
4,1710381800366,14/03/2024 07:33:20.366,91.6667,2601,-41.492,51.309,19,48,1,0,0,0,0,0,0,0,0,1,0,0,0,0,0,0,0,0,0,0,5.0,41.5,51.4,2.3,0,1452332,2,3.211,51,0,0,36,36,0,0,3.206,8,,0,,27,0,0,3.193,3.208,0,3.193,0,36,0,36,0,3.209,53,0,0,1,0,0,256,,35,,3,0,,0,3.208,5718322,36,0,0,1,0,1710381800366,20000,,12337,3.213,0,0,0,0,4,0,12854,1489.107,0,3.197,3.204,3354936,38804,3.203,0,2,3.211,3.21,0,84,3.295,0,4883.33,19.338,37.2,,,0,36,0,99,35,3.213,0,,1,5,,12.165,0,48,50,0,,35,3.209,75000,,3.213,50,,0,3.212,4272433,0,22,1,0,3.206,,1,0,1,0,0,0.02,0,2,0,3.202,36,5.08,5.068,0,0,4469048,0,0
4,1710381772206,14/03/2024 07:32:52.206,91.6667,2928,-7.884,51.717,0,49,1,0,0,0,0,0,0,0,0,1,0,0,0,0,0,0,0,0,0,0,5.0,4.1,39.5,2.4,0,1452206,2,3.24,51,0,0,36,36,0,0,3.232,8,,0,,22,0,0,3.209,3.237,0,3.209,0,35,0,36,0,3.24,53,0,0,1,0,0,256,,34,,3,0,,0,3.231,5718322,36,0,0,1,0,1710381772206,20000,,12337,3.24,0,0,0,0,4,0,12854,1489.091,0,3.231,3.235,3354936,29019,3.238,6,3,3.238,3.224,0,84,3.294,0,4911.11,19.448,37.2,,,0,36,0,99,35,3.24,0,,1,2,,12.169,0,48,50,0,,34,3.231,75000,,3.237,51,,0,3.226,4272433,0,22,1,0,3.236,,1,0,1,0,0,0.031,0,2,0,3.224,36,5.073,5.065,0,0,4469048,0,0
4,1710381743346,14/03/2024 07:32:23.346,20.8333,2487,,,12,,,,,,,,,,,,0,0,0,0,0,0,0,0,0,0,5.1,23.1,36.8,2.1,,,,,,0,,,,0,,,,,,,5,,,,,,,,,,,0,,,,,1,,,256,,,,3,0,,,,,,0,,,,1710381743346,,,,,,,,,,,,,0,,,,18996,,,,,,,84,,,,,,,,,,,,,,0,,1,,,,0,,50,,,,,,,,,,,,,,5,,0,,,,0,,,0,,,,,,,,,,0,,,
4,1710381713166,14/03/2024 07:31:53.166,87.5,2127,16.312,52.232,0,50,1,0,0,0,0,0,0,0,0,1,0,0,0,0,0,0,0,0,0,0,5.2,6534.4,30.0,1.7,0,1451608,2,3.266,51,0,0,36,35,0,0,3.264,7,,0,,21,0,0,3.259,3.263,0,3.266,0,35,0,35,0,3.263,52,0,0,1,0,0,256,,34,,3,0,,0,3.265,5718322,35,0,0,1,0,1710381713166,20000,,12337,3.266,0,0,0,0,4,0,,1489.058,0,3.264,3.259,,8531,3.273,6,6,3.263,3.259,0,81,3.293,0,5053.78,20.013,37.2,,,0,36,0,99,35,3.273,0,,1,1,,12.173,0,48,49,0,,34,3.264,75000,,3.266,54,,0,3.266,,0,21,1,0,3.266,,1,0,1,0,0,0.014,0,2,0,3.263,36,5.055,5.049,0,0,4469048,0,0
4,1710381681734,14/03/2024 07:31:21.734,58.3333,2600,,,15,,1,0,0,0,0,0,0,0,0,1,0,0,0,0,0,0,0,0,0,0,5.1,33.5,45.1,2.2,0,1451095,2,,50,0,0,36,35,0,0,,,,0,,19,0,0,,,0,,0,35,0,35,0,,53,0,0,1,0,0,256,,34,,3,0,,0,,5718322,35,0,0,1,0,1710381681734,20000,,12337,,0,0,0,0,,0,12854,1489.045,0,,,3354936,63203,,14,,,,0,79,3.266,0,5180.05,,37.2,,,0,36,0,,34,,0,,1,,,12.169,0,,48,0,,,,75000,,,,,0,,4272433,0,14,1,0,,,1,0,,0,0,,0,2,0,,,5.048,5.028,0,0,4469048,0,0
4,1710381653406,14/03/2024 07:30:53.406,95.8333,504,-25.958,52.044,43,52,1,0,0,0,0,0,0,0,0,1,0,0,0,0,0,0,0,0,0,0,5.1,25.0,101.2,0.6,0,1450838,2,3.255,51,0,0,36,35,0,0,3.252,8,1,0,20,23,0,0,3.243,3.253,0,3.243,0,35,0,35,0,3.255,53,0,0,1,0,0,256,,34,0,3,0,0,0,3.255,5718322,35,0,0,1,0,1710381653406,20000,,12337,3.255,0,0,0,0,1,0,12854,1489.045,0,3.244,3.253,3354936,53379,3.25,0,6,3.256,3.256,0,79,3.288,0,5244.94,20.77,37.2,,3,0,36,0,99,34,3.257,0,115,1,14,,12.182,0,48,48,0,0,34,3.254,75000,4500,3.257,49,1,0,3.254,4272433,0,23,1,0,3.253,0,1,0,1,0,0,0.014,0,2,0,3.251,36,5.053,5.026,0,0,4469048,0,0
4,1710381625268,14/03/2024 07:30:25.268,91.6667,1,-0.307,52.51,0,52,1,0,0,0,0,0,0,0,0,1,0,0,0,0,0,0,0,0,0,0,5.2,0.0,0.0,0.0,0,1450834,2,3.282,51,0,0,36,35,0,0,3.281,16,,0,,22,0,0,3.279,3.281,0,3.28,0,35,0,35,0,3.282,53,0,0,1,0,0,256,,34,,0,0,,0,3.283,5718322,35,0,0,1,0,1710381625268,20000,,12337,3.283,0,0,0,0,1,0,12854,1489.045,0,3.279,3.28,3354936,43617,3.282,0,6,3.283,3.281,0,80,3.293,0,5245.96,20.774,37.2,,,0,36,0,99,34,3.284,0,,0,14,,12.22,0,48,48,0,,34,3.283,75000,,3.284,50,,0,3.283,4272433,0,22,1,0,3.282,,1,0,1,0,0,0.005,0,2,0,3.282,36,5.08,5.068,0,0,4469048,0,0
4,1710381600006,14/03/2024 07:30:00.006,70.8333,,0.0,52.386,,52,0,0,0,0,0,0,0,1,0,1,,,,,,,,,,,,,,,0,1450822,2,3.275,51,,0,36,35,,0,3.274,7,,1,,17,0,0,3.272,3.273,0,3.272,0,35,0,35,,3.274,53,0,0,,0,0,,,34,,,,,0,3.275,5718322,35,,0,0,0,1710381600006,20000,,12337,3.275,0,0,0,0,33,0,12854,1489.045,,3.272,3.272,3354936,35130,3.275,0,6,3.275,3.273,1,,3.294,0,5248.99,20.786,37.2,,,0,36,0,99,34,3.277,,,,14,,12.182,,48,,0,,34,3.275,75000,,3.277,51,,0,3.276,4272433,0,17,1,,3.274,,1,,1,0,,0.005,0,2,0,3.273,36,5.063,5.065,0,,4469048,0,0